\cite{Shengyao_2}
 Total Kinetic Energy : (MeV) Mass Number (A) : Average Neutron Multiplicity
           156.0    86.     1.69
           159.8    86.     1.23
           163.9    86.     1.52
           168.0    86.     1.06
           171.7    86.     1.02
           175.8    86.     0.67
           179.9    86.     0.90
           184.0    86.     0.33
           188.3    86.     0.39
                        
           152.5    90.     1.75
           155.9    90.     1.71
           160.3    90.     1.61
           164.2    90.     1.50
           168.0    90.     1.45
           171.9    90.     1.27
           175.8    90.     1.02
           180.1    90.     1.18
           184.0    90.     0.74
           188.1    90.     0.65
           192.0    90.     0.76
                        
           155.7    94.     2.01
           159.8    94.     1.99
           163.9    94.     1.87
           168.0    94.     1.69
           171.9    94.     1.32
           176.0    94.     1.41
           180.1    94.     1.16
           184.2    94.     1.00
           188.1    94.     0.79
           192.2    94.     0.56
           196.3    94.     0.40
           200.4    94.     0.29
                        
           156.1    98.     2.62
           159.8    98.     2.32
           163.9    98.     2.22
           168.2    98.     1.90
           171.9    98.     1.69
           175.8    98.     1.36
           179.9    98.     1.27
           184.0    98.     1.11
           188.1    98.     0.94
           192.2    98.     0.76
           196.1    98.     0.60
           200.2    98.     0.48
                        
           155.7   102.     2.56
           159.8   102.     2.32
           163.7   102.     2.36
           168.0   102.     1.98
           171.9   102.     1.93
           175.5   102.     1.59
           179.7   102.     1.39
           183.5   102.     1.16
           187.9   102.     1.05
           191.8   102.     0.80
           195.9   102.     0.71
           200.0   102.     0.51
           204.1   102.     0.33
           207.7   102.     0.26
           211.8   102.     0.37
           215.5   102.     0.37
                        
           159.8   106.     3.06
           163.9   106.     2.78
           167.8   106.     2.46
           172.0   106.     2.23
           176.3   106.     2.02
           180.0   106.     1.90
           184.1   106.     1.61
           188.0   106.     1.47
           192.1   106.     1.14
           196.5   106.     1.00
           200.2   106.     0.89
           203.8   106.     0.63
           207.7   106.     0.40
           211.9   106.     0.19
           215.8   106.     0.10
                        
           160.0   110.     3.45
           164.2   110.     3.24
           168.1   110.     3.26
           172.4   110.     2.89
           176.1   110.     2.70
           180.0   110.     2.45
           184.6   110.     2.12
           187.8   110.     1.94
           192.6   110.     1.70
           196.3   110.     1.42
           200.2   110.     1.15
           204.3   110.     0.89
           207.8   110.     0.98
           211.9   110.     0.63
           216.0   110.     0.33
                        
           164.4   114.     4.71
           168.1   114.     3.63
           172.4   114.     3.58
           176.8   114.     3.37
           180.2   114.     3.14
           184.4   114.     2.89
           188.7   114.     2.56
           192.8   114.     2.21
           196.7   114.     1.94
           200.4   114.     1.70
           204.3   114.     1.45
           208.9   114.     1.22
           212.8   114.     1.05
           216.2   114.     0.91
                        
           160.5   118.     4.72
           164.4   118.     4.91
           168.3   118.     4.74
           172.7   118.     3.91
           176.4   118.     3.98
           180.5   118.     3.66
           184.6   118.     3.38
           188.3   118.     2.94
           192.4   118.     2.85
           196.3   118.     2.66
           200.7   118.     2.38
           204.1   118.     1.90
           208.7   118.     1.87
           212.8   118.     1.52
           216.7   118.     1.31
                        
           160.0   122.     3.74
           163.7   122.     4.31
           167.6   122.     4.19
           172.0   122.     4.67
           175.9   122.     4.12
           179.8   122.     4.07
           184.0   122.     3.98
           188.6   122.     3.73
           192.2   122.     3.63
           196.1   122.     3.24
           200.3   122.     3.33
           204.1   122.     2.48
           208.5   122.     2.46
           211.9   122.     2.16
           216.1   122.     2.04
                        
          160.19   130.    2.041
          164.09   130.    1.994
          164.13   130.    2.751
          168.23   130.    1.969
          172.38   130.    2.059
          175.81   130.     1.69
          180.17   130.     1.39
          183.83   130.    1.137
          188.20   130.     1.02
          191.88   130.    1.087
          195.78   130.    0.879
          199.91   130.    0.671
          203.81   130.    0.531
          207.95   130.    0.484
          211.86   130.    0.436
          215.76   130.    0.343
                        
          160.64   134.    2.005
          164.32   134.    2.073
          168.24   134.    2.279
          172.37   134.     2.07
          176.72   134.      1.7
          180.41   134.    1.905
          184.54   134.    1.719
          187.98   134.    1.534
          192.57   134.    1.278
          196.48   134.    1.254
          201.08   134.    1.137
          204.98   134.    0.905
          208.42   134.    0.719
          212.10   134.    0.695
          216.23   134.    0.647
                        
          164.34   138.    2.525
          168.01   138.    2.408
          172.38   138.    2.429
          176.06   138.    2.359
          180.18   138.    2.012
          184.08   138.    1.803
          188.22   138.    1.847
          192.35   138.    1.454
          196.49   138.    1.452
          200.39   138.    1.174
          204.52   138.    1.011
          208.42   138.    0.825
          212.33   138.     0.87
          216.01   138.     0.73
                        
          160.70   142.    3.031
          164.38   142.    2.983
          168.72   142.    2.313
          172.41   142.    2.565
          176.08   142.    2.356
          180.44   142.    2.169
          184.33   142.    1.776
          188.46   142.    1.658
          192.36   142.    1.518
          195.34   142.    1.286
          200.18   142.    1.353
          204.53   142.    1.075
          208.43   142.    0.796
          213.48   142.    0.748
          216.46   142.    0.493
                        
          160.25   146.    2.877
          164.18   146.    3.172
          167.84   146.    2.918
          172.19   146.     2.55
          176.10   146.    2.525
          180.22   146.    2.202
          183.66   146.     2.04
          187.79   146.    1.809
          191.92   146.    1.692
          195.59   146.    1.439
          200.17   146.    1.116
          204.08   146.    1.068
          207.73   146.    0.654
          211.87   146.    0.583
          215.30   146.    0.307
                        
          155.44   150.    3.652
          159.55   150.     3.29
          163.66   150.    3.019
          167.77   150.     2.77
          171.19   150.    2.974
          175.31   150.    2.453
          179.64   150.    2.204
          183.52   150.    2.046
          187.86   150.    1.797
          192.20   150.    1.616
          196.08   150.    1.254
          200.19   150.    0.982
          203.84   150.    0.711
          207.95   150.    0.621
          212.06   150.     0.19
                        
          156.10   154.    3.998
          159.75   154.    3.695
          163.86   154.    3.742
          167.52   154.    3.042
          171.86   154.    2.997
          175.97   154.    2.787
          179.62   154.    2.508
          183.51   154.    2.088
          187.85   154.    1.995
          191.96   154.    1.646
          196.53   154.    1.249
          200.19   154.    0.783
                        
          155.46   158.    4.291
          159.57   158.    4.153
          163.45   158.    3.624
          168.24   158.    3.071
          171.89   158.    2.841
          175.77   158.     2.68
          180.11   158.    2.634
          183.76   158.    2.104
          187.87   158.    2.059
          192.21   158.    1.299
          195.86   158.    1.161
          200.42   158.    1.368
          204.53   158.     0.47
                        
          152.28   162.    4.124
          160.27   162.    4.032
          163.92   162.    3.318
          168.03   162.    3.111
          172.36   162.    2.651
          176.24   162.    2.305
          180.35   162.    2.052
          184.23   162.     1.43
          188.34   162.    1.108
          191.99   162.    0.532
                        
          155.96   166.    4.151
          160.07   166.    4.059
          164.17   166.     3.69
          167.82   166.    3.874
          171.93   166.    3.482
          175.80   166.    2.561
          179.68   166.    2.215
          184.47   166.    1.869
          187.89   166.    1.155
